{
  "resourceType": "Bundle",
  "id": "03139d37-995a-4540-9895-a52728ea9298",
  "language": "en-US",
  "identifier": {
    "system": "urn:oid:2.16.724.4.8.10.200.10",
    "value": "10194307-3bec-4ca9-b98f-0e51718e9a78"
  },
  "type": "document",
  "timestamp": "2021-10-02T17:59:47.953Z",
  "entry": [
    {
      "fullUrl": "urn:uuid:3d8099af-7f04-406f-8709-0bc1ca1a3cff",
      "resource": {
        "resourceType": "Composition",
        "id": "3d8099af-7f04-406f-8709-0bc1ca1a3cff",
        "language": "en-US",
        "text": {
          "status": "generated",
          "div": "<div xmlns='http://www.w3.org/1999/xhtml' lang='en-US' xml:lang='en-US'>International Patient Summary </div>"
        },
        "status": "final",
        "type": {
          "coding": [
            {
              "system": "http://loinc.org",
              "code": "60591-5",
              "display": "Patient summary Document"
            }
          ]
        },
        "subject": {
          "reference": "Patient/101304"
        },
        "date": "2021-10-02T17:59:47.953Z",
        "author": [
          {
            "reference": "Organization/200017-Organization-10001"
          }
        ],
        "title": "International Patient Summary",
        "section": [
          {
            "title": "Allergies and Intolerances",
            "code": {
              "coding": [
                {
                  "system": "http://loinc.org",
                  "code": "48765-2",
                  "display": "Allergies and adverse reactions Document"
                }
              ]
            },
            "text": {
              "status": "generated",
              "div": "<div xmlns=\"http://www.w3.org/1999/xhtml\">No narrative available on allergies</div>"
            },
            "entry": [
              {
                "reference": "AllergyIntolerance/200017-AllergyIntolerance-10001"
              },
              {
                "reference": "AllergyIntolerance/200017-AllergyIntolerance-10002"
              }
            ]
          },
          {
            "title": "Problem List",
            "code": {
              "coding": [
                {
                  "system": "http://loinc.org",
                  "code": "11450-4",
                  "display": "Problem list - Reported"
                }
              ]
            },
            "text": {
              "status": "generated",
              "div": "<div xmlns=\"http://www.w3.org/1999/xhtml\">No narrative available on problems</div>"
            },
            "entry": [
              {
                "reference": "Condition/200017-HealthConcerns-10001"
              },
              {
                "reference": "Condition/200017-HealthConcerns-10002"
              },
              {
                "reference": "Condition/200017-HealthConcerns-10003"
              },
              {
                "reference": "Condition/200017-HealthConcerns-10004"
              },
              {
                "reference": "Condition/200017-Problem-10001"
              },
              {
                "reference": "Condition/200017-EncounterDiagnosis-10001"
              }
            ]
          },
          {
            "title": "Medication Summary",
            "code": {
              "coding": [
                {
                  "system": "http://loinc.org",
                  "code": "10160-0",
                  "display": "History of Medication use Narrative"
                }
              ]
            },
            "text": {
              "status": "generated",
              "div": "<div xmlns=\"http://www.w3.org/1999/xhtml\">No narrative available on medications</div>"
            },
            "entry": [
              {
                "reference": "MedicationStatement/200017-MedicationStatement-10001"
              },
              {
                "reference": "MedicationStatement/200017-MedicationStatement-10002"
              },
              {
                "reference": "MedicationStatement/200017-MedicationStatement-10003"
              }
            ]
          },
          {
            "title": "Immunizations",
            "code": {
              "coding": [
                {
                  "system": "http://loinc.org",
                  "code": "11369-6",
                  "display": "History of Immunization Narrative"
                }
              ]
            },
            "text": {
              "status": "generated",
              "div": "<div xmlns=\"http://www.w3.org/1999/xhtml\">No narrative available on problems</div>"
            },
            "entry": [
              {
                "reference": "Immunization/200017-Immunization-10001"
              },
              {
                "reference": "Immunization/200017-Immunization-10002"
              }
            ]
          },
          {
            "title": "Results",
            "code": {
              "coding": [
                {
                  "system": "http://loinc.org",
                  "code": "30954-2",
                  "display": "Relevant diagnostic tests/laboratory data Narrative"
                }
              ]
            },
            "text": {
              "status": "generated",
              "div": "<div xmlns=\"http://www.w3.org/1999/xhtml\">No narrative available on problems</div>"
            },
            "entry": [
              {
                "reference": "Observation/200019-Result-10001"
              },
              {
                "reference": "Observation/200019-Result-10002"
              },
              {
                "reference": "Observation/200019-Result-10003"
              },
              {
                "reference": "Observation/200019-Result-10004"
              },
              {
                "reference": "Observation/200019-Result-10005"
              }
            ]
          }
        ]
      }
    },
    {
      "fullUrl": "Patient/101304",
      "resource": {
        "resourceType": "Patient",
        "id": "101304",
        "meta": {
          "versionId": "200017",
          "profile": [
            "http://hl7.org/fhir/us/core/StructureDefinition/us-core-patient"
          ]
        },
        "language": "English- [en-US]",
        "extension": [
          {
            "extension": [
              {
                "url": "ombCategory",
                "valueCoding": {
                  "system": "urn:oid:2.16.840.1.113883.6.238",
                  "code": "2106-3",
                  "display": "White"
                }
              },
              {
                "url": "text",
                "valueString": "WHITE"
              },
              {
                "url": "detailed",
                "valueCoding": {
                  "system": "urn:oid:2.16.840.1.113883.6.238",
                  "code": "2108-9",
                  "display": "White European"
                }
              }
            ],
            "url": "http://hl7.org/fhir/us/core/StructureDefinition/us-core-race"
          },
          {
            "extension": [
              {
                "url": "ombCategory",
                "valueCoding": {
                  "system": "urn:oid:2.16.840.1.113883.6.238",
                  "code": "2186-5",
                  "display": "Not Hispanic or Latino"
                }
              },
              {
                "url": "text",
                "valueString": "NOT HISPANIC OR LATINO"
              }
            ],
            "url": "http://hl7.org/fhir/us/core/StructureDefinition/us-core-ethnicity"
          },
          {
            "url": "http://hl7.org/fhir/us/core/StructureDefinition/us-core-birthsex",
            "valueCode": "F"
          }
        ],
        "identifier": [
          {
            "use": "usual",
            "type": {
              "coding": [
                {
                  "system": "http://terminology.hl7.org/CodeSystem/v2-0203",
                  "code": "MR",
                  "display": "Medical Record Number"
                }
              ],
              "text": "MRN"
            },
            "system": "urn:oid:1.1.1.1.1.1",
            "value": "fhir_test_01"
          }
        ],
        "name": [
          {
            "use": "usual",
            "text": "Happy Always Always Kid",
            "family": "Kid",
            "given": [
              "Happy Always"
            ]
          },
          {
            "use": "usual",
            "text": "N/A Always Always Kid",
            "family": "Kid",
            "given": [
              "N/A Always"
            ]
          }
        ],
        "telecom": [
          {
            "system": "phone",
            "value": "555-777-1234",
            "use": "mobile"
          },
          {
            "system": "phone",
            "value": "555-723-1544",
            "use": "home"
          },
          {
            "system": "email",
            "value": "happykid@gmail.com"
          }
        ],
        "gender": "female",
        "birthDate": "2013-06-01",
        "address": [
          {
            "use": "home",
            "line": [
              "1357, Amber Dr,"
            ],
            "city": "Beaverton",
            "state": "OR",
            "postalCode": "97006",
            "country": "USA",
            "period": {
              "start": "2015-01-02"
            }
          },
          {
            "use": "home",
            "line": [
              "1402 Dariy Dr,"
            ],
            "city": "Beaverton",
            "state": "OR",
            "postalCode": "97006",
            "country": "USA",
            "period": {
              "start": "2011-01-01",
              "end": "2011-01-01"
            }
          }
        ],
        "communication": [
          {
            "language": {
              "coding": [
                {
                  "code": "en-US",
                  "display": "English (Region=United States)"
                }
              ],
              "text": "English (Region=United States)"
            }
          }
        ]
      }
    },
    {
      "fullUrl": "Organization/200017-Organization-10001",
      "resource": {
        "resourceType": "Organization",
        "id": "200017-Organization-10001",
        "meta": {
          "versionId": "200017",
          "profile": [
            "http://hl7.org/fhir/us/core/StructureDefinition/us-core-organization"
          ]
        },
        "text": {
          "status": "generated",
          "div": "<div xmlns=\"http://www.w3.org/1999/xhtml\">\r\n  <div>\r\n    <h2 style=\"color: black;\">Generated Narrative with Details</h2>\r\n    <p></p>\r\n  </div>\r\n  <div>\r\n    <h1>Organizational Details</h1>\r\n    <table>\r\n      <tr>\r\n        <td>\r\n          <span>\r\n            <b>Name: </b>\r\n          </span>\r\n        </td>\r\n        <td>\r\n          <span>Neighborhood Physicians Practice</span>\r\n        </td>\r\n      </tr>\r\n      <tr>\r\n        <td>\r\n          <span>\r\n            <b>Telecom: </b>\r\n          </span>\r\n        </td>\r\n        <td>\r\n          <span></span>\r\n        </td>\r\n      </tr>\r\n    </table>\r\n  </div>\r\n</div>"
        },
        "identifier": [
          {
            "use": "official",
            "system": "urn:ietf:rfc:3986",
            "value": "urn:uuid:c4355334-ec73-4a62-b7c3-2798080b344e"
          }
        ],
        "active": true,
        "name": "Neighborhood Physicians Practice",
        "telecom": [
          {
            "system": "phone",
            "value": "555-555-1002",
            "use": "work"
          }
        ],
        "address": [
          {
            "use": "work",
            "type": "both",
            "line": [
              "2472 Rocky place"
            ],
            "city": "Beaverton",
            "state": "OR",
            "postalCode": "97006"
          }
        ]
      }
    },
    {
      "fullUrl": "AllergyIntolerance/200017-AllergyIntolerance-10001",
      "resource": {
        "resourceType": "AllergyIntolerance",
        "id": "200017-AllergyIntolerance-10001",
        "meta": {
          "versionId": "200017",
          "lastUpdated": "2020-07-13T12:26:57-05:00",
          "profile": [
            "http://hl7.org/fhir/us/core/StructureDefinition/us-core-allergyintolerance"
          ]
        },
        "identifier": [
          {
            "use": "official",
            "system": "urn:ietf:rfc:3986",
            "value": "urn:uuid:b7e3f244-69b7-4b2a-9469-40a2fffdf4dc"
          }
        ],
        "clinicalStatus": {
          "coding": [
            {
              "system": "http://terminology.hl7.org/CodeSystem/allergyintolerance-clinical",
              "code": "active"
            }
          ],
          "text": "active"
        },
        "verificationStatus": {
          "coding": [
            {
              "system": "http://terminology.hl7.org/CodeSystem/allergyintolerance-verification",
              "code": "unconfirmed"
            }
          ],
          "text": "unconfirmed"
        },
        "type": "allergy",
        "category": [
          "medication"
        ],
        "criticality": "unable-to-assess",
        "code": {
          "coding": [
            {
              "system": "http://www.nlm.nih.gov/research/umls/rxnorm",
              "code": "733",
              "display": "Ampicillin"
            }
          ]
        },
        "patient": {
          "reference": "Patient/101304",
          "display": "Happy Kid"
        },
        "onsetPeriod": {
          "start": "2014-12-01"
        },
        "recorder": {
          "reference": "Practitioner/200017-Practitioner-10001",
          "display": "Dr Albert Davis"
        },
        "reaction": [
          {
            "manifestation": [
              {
                "coding": [
                  {
                    "system": "http://snomed.info/sct",
                    "code": "247472004",
                    "display": "Hives"
                  }
                ],
                "text": "Hives"
              }
            ],
            "onset": "2014-12-01",
            "severity": "moderate"
          }
        ]
      }
    },
    {
      "fullUrl": "AllergyIntolerance/200017-AllergyIntolerance-10002",
      "resource": {
        "resourceType": "AllergyIntolerance",
        "id": "200017-AllergyIntolerance-10002",
        "meta": {
          "versionId": "200017",
          "lastUpdated": "2020-07-13T12:26:57-05:00",
          "profile": [
            "http://hl7.org/fhir/us/core/StructureDefinition/us-core-allergyintolerance"
          ]
        },
        "identifier": [
          {
            "use": "official",
            "system": "urn:ietf:rfc:3986",
            "value": "urn:uuid:7c48ae1e-b4c5-453b-ba99-59d0fa8dd5f0"
          }
        ],
        "clinicalStatus": {
          "coding": [
            {
              "system": "http://terminology.hl7.org/CodeSystem/allergyintolerance-clinical",
              "code": "active"
            }
          ],
          "text": "active"
        },
        "verificationStatus": {
          "coding": [
            {
              "system": "http://terminology.hl7.org/CodeSystem/allergyintolerance-verification",
              "code": "unconfirmed"
            }
          ],
          "text": "unconfirmed"
        },
        "type": "allergy",
        "category": [
          "medication"
        ],
        "criticality": "unable-to-assess",
        "code": {
          "coding": [
            {
              "system": "http://www.nlm.nih.gov/research/umls/rxnorm",
              "code": "7980",
              "display": "Penicillin G"
            }
          ]
        },
        "patient": {
          "reference": "Patient/101304",
          "display": "Happy Kid"
        },
        "onsetPeriod": {
          "start": "2013-12-01"
        },
        "recorder": {
          "reference": "Practitioner/200017-Practitioner-10001",
          "display": "Dr Albert Davis"
        },
        "reaction": [
          {
            "manifestation": [
              {
                "coding": [
                  {
                    "system": "http://snomed.info/sct",
                    "code": "247472004",
                    "display": "Hives"
                  }
                ],
                "text": "Hives"
              }
            ],
            "onset": "2013-12-01",
            "severity": "moderate"
          }
        ]
      }
    },
    {
      "fullUrl": "Condition/200017-HealthConcerns-10001",
      "resource": {
        "resourceType": "Condition",
        "id": "200017-HealthConcerns-10001",
        "meta": {
          "versionId": "200017",
          "profile": [
            "http://hl7.org/fhir/us/core/StructureDefinition/us-core-condition"
          ]
        },
        "identifier": [
          {
            "use": "official",
            "system": "urn:ietf:rfc:3986",
            "value": "urn:uuid:91e3c264-2416-4f1d-a94c-9aaa7cdd4ab5"
          }
        ],
        "clinicalStatus": {
          "coding": [
            {
              "system": "http://terminology.hl7.org/CodeSystem/condition-clinical",
              "code": "resolved",
              "display": "resolved"
            }
          ],
          "text": "resolved"
        },
        "verificationStatus": {
          "coding": [
            {
              "system": "http://terminology.hl7.org/CodeSystem/condition-ver-status",
              "code": "confirmed",
              "display": "confirmed"
            }
          ],
          "text": "confirmed"
        },
        "category": [
          {
            "coding": [
              {
                "system": "http://hl7.org/fhir/us/core/CodeSystem/condition-category",
                "code": "health-concern",
                "display": "Health Concern"
              }
            ],
            "text": "Health Concern"
          }
        ],
        "code": {
          "text": "Documented HyperTension problem"
        },
        "subject": {
          "reference": "Patient/101304",
          "display": "Happy Kid"
        },
        "asserter": {
          "reference": "Patient/101304",
          "display": "Happy Kid"
        }
      }
    },
    {
      "fullUrl": "Condition/200017-HealthConcerns-10002",
      "resource": {
        "resourceType": "Condition",
        "id": "200017-HealthConcerns-10002",
        "meta": {
          "versionId": "200017",
          "profile": [
            "http://hl7.org/fhir/us/core/StructureDefinition/us-core-condition"
          ]
        },
        "identifier": [
          {
            "use": "official",
            "system": "urn:ietf:rfc:3986",
            "value": "urn:uuid:ed3457c2-9f6e-4ddd-96ca-23ad2492db11"
          }
        ],
        "clinicalStatus": {
          "coding": [
            {
              "system": "http://terminology.hl7.org/CodeSystem/condition-clinical",
              "code": "resolved",
              "display": "resolved"
            }
          ],
          "text": "resolved"
        },
        "verificationStatus": {
          "coding": [
            {
              "system": "http://terminology.hl7.org/CodeSystem/condition-ver-status",
              "code": "confirmed",
              "display": "confirmed"
            }
          ],
          "text": "confirmed"
        },
        "category": [
          {
            "coding": [
              {
                "system": "http://hl7.org/fhir/us/core/CodeSystem/condition-category",
                "code": "health-concern",
                "display": "Health Concern"
              }
            ],
            "text": "Health Concern"
          }
        ],
        "code": {
          "text": "Watch Weight of patient"
        },
        "subject": {
          "reference": "Patient/101304",
          "display": "Happy Kid"
        },
        "asserter": {
          "reference": "Patient/101304",
          "display": "Happy Kid"
        }
      }
    },
    {
      "fullUrl": "Condition/200017-HealthConcerns-10003",
      "resource": {
        "resourceType": "Condition",
        "id": "200017-HealthConcerns-10003",
        "meta": {
          "versionId": "200017",
          "profile": [
            "http://hl7.org/fhir/us/core/StructureDefinition/us-core-condition"
          ]
        },
        "identifier": [
          {
            "use": "official",
            "system": "urn:ietf:rfc:3986",
            "value": "urn:uuid:ffa70e5b-3c38-4c05-8633-c4da41fb1022"
          }
        ],
        "clinicalStatus": {
          "coding": [
            {
              "system": "http://terminology.hl7.org/CodeSystem/condition-clinical",
              "code": "resolved",
              "display": "resolved"
            }
          ],
          "text": "resolved"
        },
        "verificationStatus": {
          "coding": [
            {
              "system": "http://terminology.hl7.org/CodeSystem/condition-ver-status",
              "code": "confirmed",
              "display": "confirmed"
            }
          ],
          "text": "confirmed"
        },
        "category": [
          {
            "coding": [
              {
                "system": "http://hl7.org/fhir/us/core/CodeSystem/condition-category",
                "code": "health-concern",
                "display": "Health Concern"
              }
            ],
            "text": "Health Concern"
          }
        ],
        "code": {
          "text": "Documented HypoThyroidism problem"
        },
        "subject": {
          "reference": "Patient/101304",
          "display": "Happy Kid"
        },
        "asserter": {
          "reference": "Patient/101304",
          "display": "Happy Kid"
        }
      }
    },
    {
      "fullUrl": "Condition/200017-HealthConcerns-10004",
      "resource": {
        "resourceType": "Condition",
        "id": "200017-HealthConcerns-10004",
        "meta": {
          "versionId": "200017",
          "profile": [
            "http://hl7.org/fhir/us/core/StructureDefinition/us-core-condition"
          ]
        },
        "identifier": [
          {
            "use": "official",
            "system": "urn:ietf:rfc:3986",
            "value": "urn:uuid:c0029e5d-32c3-48f6-b0fc-83e01d5d14ad"
          }
        ],
        "clinicalStatus": {
          "coding": [
            {
              "system": "http://terminology.hl7.org/CodeSystem/condition-clinical",
              "code": "active",
              "display": "active"
            }
          ],
          "text": "active"
        },
        "verificationStatus": {
          "coding": [
            {
              "system": "http://terminology.hl7.org/CodeSystem/condition-ver-status",
              "code": "confirmed",
              "display": "confirmed"
            }
          ],
          "text": "confirmed"
        },
        "category": [
          {
            "coding": [
              {
                "system": "http://hl7.org/fhir/us/core/CodeSystem/condition-category",
                "code": "health-concern",
                "display": "Health Concern"
              }
            ],
            "text": "Health Concern"
          }
        ],
        "code": {
          "coding": [
            {
              "system": "http://snomed.info/sct",
              "code": "161901003",
              "display": "Chronically ill"
            }
          ],
          "text": "CHRONICALLY ILL"
        },
        "subject": {
          "reference": "Patient/101304",
          "display": "Happy Kid"
        },
        "asserter": {
          "reference": "Patient/101304",
          "display": "Happy Kid"
        }
      }
    },
    {
      "fullUrl": "Condition/200017-Problem-10001",
      "resource": {
        "resourceType": "Condition",
        "id": "200017-Problem-10001",
        "meta": {
          "versionId": "R4"
        },
        "identifier": [
          {
            "use": "official",
            "system": "urn:ietf:rfc:3986",
            "value": "urn:uuid:1.3.6.1.4.1.22812.18.99930.951951951.4.1.2.1"
          }
        ],
        "clinicalStatus": {
          "coding": [
            {
              "system": "http://terminology.hl7.org/CodeSystem/condition-clinical",
              "code": "active",
              "display": "active"
            }
          ],
          "text": "active"
        },
        "verificationStatus": {
          "coding": [
            {
              "system": "http://terminology.hl7.org/CodeSystem/condition-ver-status",
              "code": "confirmed",
              "display": "confirmed"
            }
          ],
          "text": "confirmed"
        },
        "category": [
          {
            "coding": [
              {
                "system": "http://terminology.hl7.org/CodeSystem/condition-category",
                "code": "problem-list-item",
                "display": "Problem List Item"
              }
            ],
            "text": "Problem"
          }
        ],
        "code": {
          "coding": [
            {
              "system": "http://snomed.info/sct",
              "code": "62067003",
              "display": "HYPO PLASTIC LEFT HEART SYNDROME"
            }
          ],
          "text": "Hypo Plastic Left Heart Syndrome"
        },
        "subject": {
          "reference": "Patient/101304"
        },
        "onsetDateTime": "2013-06-01",
        "asserter": {
          "reference": "Practitioner/200017-Practitioner-10001",
          "display": "Dr. Davis Albert"
        }
      }
    },
    {
      "fullUrl": "Condition/200017-EncounterDiagnosis-10001",
      "resource": {
        "resourceType": "Condition",
        "id": "200017-EncounterDiagnosis-10001",
        "meta": {
          "versionId": "R4",
          "profile": [
            "http://hl7.org/fhir/us/core/StructureDefinition/us-core-condition"
          ]
        },
        "identifier": [
          {
            "use": "official",
            "system": "urn:ietf:rfc:3986",
            "value": "urn:uuid:997c89a4-732e-46d9-9370-4e7b54ca9e8e"
          }
        ],
        "clinicalStatus": {
          "coding": [
            {
              "system": "http://terminology.hl7.org/CodeSystem/condition-clinical",
              "code": "resolved",
              "display": "resolved"
            }
          ],
          "text": "resolved"
        },
        "verificationStatus": {
          "coding": [
            {
              "system": "http://terminology.hl7.org/CodeSystem/condition-ver-status",
              "code": "confirmed",
              "display": "confirmed"
            }
          ],
          "text": "confirmed"
        },
        "category": [
          {
            "coding": [
              {
                "system": "http://terminology.hl7.org/CodeSystem/condition-category",
                "code": "encounter-diagnosis",
                "display": "Encounter Diagnosis"
              }
            ],
            "text": "Encounter Diagnosis"
          }
        ],
        "code": {
          "coding": [
            {
              "system": "http://snomed.info/sct",
              "code": "386661006",
              "display": "FEVER"
            }
          ],
          "text": "Fever"
        },
        "subject": {
          "reference": "Patient/101304"
        },
        "encounter": {
          "reference": "Encounter/200017-Encounter-10001"
        }
      }
    },
    {
      "fullUrl": "https://localhost:44360/fhir/MedicationStatement/200017-MedicationStatement-10001",
      "resource": {
        "resourceType": "MedicationStatement",
        "id": "200017-MedicationStatement-10001",
        "meta": {
          "versionId": "200017"
        },
        "identifier": [
          {
            "use": "official",
            "system": "urn:ietf:rfc:3986",
            "value": "urn:uuid:1.3.6.1.4.1.22812.18.99930.951951951.4.9"
          }
        ],
        "category": {
          "coding": [
            {
              "system": "http://www.nlm.nih.gov/research/umls/rxnorm",
              "code": "outpatient",
              "display": "Outpatient"
            }
          ]
        },
        "status": "completed",
        "medicationCodeableConcept": {
          "coding": [
            {
              "system": "http://www.nlm.nih.gov/research/umls/rxnorm",
              "code": "209459",
              "display": "acetaminophen 500 MG Oral Tablet [Tylenol]"
            }
          ]
        },
        "subject": {
          "reference": "Patient/101304",
          "display": "Happy Kid"
        },
        "effectivePeriod": {
          "start": "2015-06-22",
          "end": "2015-07-02"
        },
        "dateAsserted": "2015-06-22",
        "dosage": [
          {
            "text": "1 U  As needed",
            "route": {
              "coding": [
                {
                  "system": "https://ncit.nci.nih.gov",
                  "code": "C38288",
                  "display": "Oral"
                }
              ]
            },
            "maxDosePerAdministration": {
              "value": 1,
              "unit": "U"
            }
          }
        ]
      }
    },
    {
      "fullUrl": "https://localhost:44360/fhir/MedicationStatement/200017-MedicationStatement-10002",
      "resource": {
        "resourceType": "MedicationStatement",
        "id": "200017-MedicationStatement-10002",
        "meta": {
          "versionId": "200017"
        },
        "identifier": [
          {
            "use": "official",
            "system": "urn:ietf:rfc:3986",
            "value": "urn:uuid:1.3.6.1.4.1.22812.18.99930.951951951.4.9"
          }
        ],
        "category": {
          "coding": [
            {
              "system": "http://www.nlm.nih.gov/research/umls/rxnorm",
              "code": "outpatient",
              "display": "Outpatient"
            }
          ]
        },
        "status": "completed",
        "medicationCodeableConcept": {
          "coding": [
            {
              "system": "http://www.nlm.nih.gov/research/umls/rxnorm",
              "code": "309090",
              "display": "ceftriaxone 100 MG/ML Injectable Solution"
            }
          ]
        },
        "subject": {
          "reference": "Patient/101304",
          "display": "Happy Kid"
        },
        "effectivePeriod": {
          "start": "2015-06-22",
          "end": "2015-06-30"
        },
        "dateAsserted": "2015-06-22",
        "dosage": [
          {
            "text": "1 U  Two times daily",
            "route": {
              "coding": [
                {
                  "system": "https://ncit.nci.nih.gov",
                  "code": "C38276",
                  "display": "INTRAVENOUS"
                }
              ]
            },
            "maxDosePerAdministration": {
              "value": 1,
              "unit": "U"
            }
          }
        ]
      }
    },
    {
      "fullUrl": "https://localhost:44360/fhir/MedicationStatement/200017-MedicationStatement-10003",
      "resource": {
        "resourceType": "MedicationStatement",
        "id": "200017-MedicationStatement-10003",
        "meta": {
          "versionId": "200017"
        },
        "identifier": [
          {
            "use": "official",
            "system": "urn:ietf:rfc:3986",
            "value": "urn:uuid:1.3.6.1.4.1.22812.18.99930.951951951.4.9"
          }
        ],
        "category": {
          "coding": [
            {
              "system": "http://www.nlm.nih.gov/research/umls/rxnorm",
              "code": "outpatient",
              "display": "Outpatient"
            }
          ]
        },
        "status": "active",
        "medicationCodeableConcept": {
          "coding": [
            {
              "system": "http://www.nlm.nih.gov/research/umls/rxnorm",
              "code": "731241",
              "display": "Aranesp 0.5 MG per 1 ML Prefilled Syringe"
            }
          ]
        },
        "subject": {
          "reference": "Patient/101304",
          "display": "Happy Kid"
        },
        "effectivePeriod": {
          "start": "2015-06-22"
        },
        "dateAsserted": "2015-06-22",
        "dosage": [
          {
            "text": "1 U  Once a week",
            "route": {
              "coding": [
                {
                  "system": "https://ncit.nci.nih.gov",
                  "code": "C38276",
                  "display": "INTRAVENOUS"
                }
              ]
            },
            "maxDosePerAdministration": {
              "value": 1,
              "unit": "U"
            }
          }
        ]
      }
    },
    {
      "fullUrl": "Immunization/200017-Immunization-10001",
      "resource": {
        "resourceType": "Immunization",
        "id": "200017-Immunization-10001",
        "meta": {
          "versionId": "200017"
        },
        "text": {
          "status": "generated",
          "div": "<div xmlns=\"http://www.w3.org/1999/xhtml\">\r\n  <div>\r\n    <h2 style=\"color: black;\">Generated Narrative with Details</h2>\r\n    <p></p>\r\n  </div>\r\n  <div>\r\n    <table>\r\n      <tr>\r\n        <td>\r\n          <span>\r\n            <b>[1] Vaccine Code: </b>\r\n          </span>\r\n        </td>\r\n        <td>\r\n          <span>106</span>\r\n        </td>\r\n      </tr>\r\n      <tr>\r\n        <td>\r\n          <span>\r\n            <b>[1] CodeSystem: </b>\r\n          </span>\r\n        </td>\r\n        <td>\r\n          <span>CVX</span>\r\n        </td>\r\n      </tr>\r\n      <tr>\r\n        <td>\r\n          <span>\r\n            <b>[2] Vaccine Code: </b>\r\n          </span>\r\n        </td>\r\n        <td>\r\n          <span>49281-0286-01</span>\r\n        </td>\r\n      </tr>\r\n      <tr>\r\n        <td>\r\n          <span>\r\n            <b>[2] CodeSystem: </b>\r\n          </span>\r\n        </td>\r\n        <td>\r\n          <span>NDC</span>\r\n        </td>\r\n      </tr>\r\n      <tr>\r\n        <td>\r\n          <span>\r\n            <b>Vaccine Name: </b>\r\n          </span>\r\n        </td>\r\n        <td>\r\n          <span>Tetanus and diphtheria toxoids</span>\r\n        </td>\r\n      </tr>\r\n      <tr>\r\n        <td>\r\n          <span>\r\n            <b>Date: </b>\r\n          </span>\r\n        </td>\r\n        <td>\r\n          <span>2013-09-01</span>\r\n        </td>\r\n      </tr>\r\n      <tr>\r\n        <td>\r\n          <span>\r\n            <b>Status: </b>\r\n          </span>\r\n        </td>\r\n        <td>\r\n          <span>Completed</span>\r\n        </td>\r\n      </tr>\r\n      <tr>\r\n        <td>\r\n          <span>\r\n            <b>Lot Number: </b>\r\n          </span>\r\n        </td>\r\n        <td>\r\n          <span>2</span>\r\n        </td>\r\n      </tr>\r\n      <tr>\r\n        <td>\r\n          <span>\r\n            <b>Manufacturer Name: </b>\r\n          </span>\r\n        </td>\r\n        <td>\r\n          <span>Immuno Inc.</span>\r\n        </td>\r\n      </tr>\r\n      <tr>\r\n        <td>\r\n          <span>\r\n            <b>Additional Notes: </b>\r\n          </span>\r\n        </td>\r\n        <td>\r\n          <span>N/A</span>\r\n        </td>\r\n      </tr>\r\n    </table>\r\n  </div>\r\n</div>"
        },
        "identifier": [
          {
            "use": "official",
            "system": "urn:ietf:rfc:3986",
            "value": "urn:uuid:1ef1b495-c0cd-4d6a-9403-42327665e6e7"
          }
        ],
        "status": "completed",
        "vaccineCode": {
          "coding": [
            {
              "system": "http://hl7.org/fhir/sid/cvx",
              "code": "106",
              "display": "Tetanus and diphtheria toxoids"
            },
            {
              "system": "http://hl7.org/fhir/sid/ndc",
              "code": "49281-0286-01",
              "display": "Tetanus and diphtheria toxoids"
            }
          ]
        },
        "patient": {
          "reference": "Patient/101304",
          "display": "Happy Kid"
        },
        "occurrenceDateTime": "2013-09-01T00:00:00-05:00",
        "primarySource": true,
        "manufacturer": {
          "display": "Immuno Inc."
        },
        "lotNumber": "2",
        "performer": [
          {
            "actor": {
              "reference": "Practitioner/200017-Practitioner-10001"
            }
          }
        ]
      }
    },
    {
      "fullUrl": "Immunization/200017-Immunization-10002",
      "resource": {
        "resourceType": "Immunization",
        "id": "200017-Immunization-10002",
        "meta": {
          "versionId": "200017"
        },
        "text": {
          "status": "generated",
          "div": "<div xmlns=\"http://www.w3.org/1999/xhtml\">\r\n  <div>\r\n    <h2 style=\"color: black;\">Generated Narrative with Details</h2>\r\n    <p></p>\r\n  </div>\r\n  <div>\r\n    <table>\r\n      <tr>\r\n        <td>\r\n          <span>\r\n            <b>[1] Vaccine Code: </b>\r\n          </span>\r\n        </td>\r\n        <td>\r\n          <span>166</span>\r\n        </td>\r\n      </tr>\r\n      <tr>\r\n        <td>\r\n          <span>\r\n            <b>[1] CodeSystem: </b>\r\n          </span>\r\n        </td>\r\n        <td>\r\n          <span>CVX</span>\r\n        </td>\r\n      </tr>\r\n      <tr>\r\n        <td>\r\n          <span>\r\n            <b>[2] Vaccine Code: </b>\r\n          </span>\r\n        </td>\r\n        <td>\r\n          <span>49281-0710-40</span>\r\n        </td>\r\n      </tr>\r\n      <tr>\r\n        <td>\r\n          <span>\r\n            <b>[2] CodeSystem: </b>\r\n          </span>\r\n        </td>\r\n        <td>\r\n          <span>NDC</span>\r\n        </td>\r\n      </tr>\r\n      <tr>\r\n        <td>\r\n          <span>\r\n            <b>Vaccine Name: </b>\r\n          </span>\r\n        </td>\r\n        <td>\r\n          <span>Influenza, intradermal, quadrivalent, preservative free</span>\r\n        </td>\r\n      </tr>\r\n      <tr>\r\n        <td>\r\n          <span>\r\n            <b>Date: </b>\r\n          </span>\r\n        </td>\r\n        <td>\r\n          <span>2014-06-01</span>\r\n        </td>\r\n      </tr>\r\n      <tr>\r\n        <td>\r\n          <span>\r\n            <b>Status: </b>\r\n          </span>\r\n        </td>\r\n        <td>\r\n          <span>NotDone (Cancelled)</span>\r\n        </td>\r\n      </tr>\r\n      <tr>\r\n        <td>\r\n          <span>\r\n            <b>Lot Number: </b>\r\n          </span>\r\n        </td>\r\n        <td>\r\n          <span>No lot number provided</span>\r\n        </td>\r\n      </tr>\r\n      <tr>\r\n        <td>\r\n          <span>\r\n            <b>Manufacturer Name: </b>\r\n          </span>\r\n        </td>\r\n        <td>\r\n          <span>Immuno Inc.</span>\r\n        </td>\r\n      </tr>\r\n      <tr>\r\n        <td>\r\n          <span>\r\n            <b>Additional Notes: </b>\r\n          </span>\r\n        </td>\r\n        <td>\r\n          <span>Immunization was not given - The patient or their guardian objects to receiving the vaccine</span>\r\n        </td>\r\n      </tr>\r\n    </table>\r\n  </div>\r\n</div>"
        },
        "identifier": [
          {
            "use": "official",
            "system": "urn:ietf:rfc:3986",
            "value": "urn:uuid:e2d6a359-97cb-453c-8a49-825cf8617423"
          }
        ],
        "status": "not-done",
        "statusReason": {
          "coding": [
            {
              "system": "http://terminology.hl7.org/CodeSystem/v3-ActReason",
              "code": "PATOBJ"
            }
          ]
        },
        "vaccineCode": {
          "coding": [
            {
              "system": "http://hl7.org/fhir/sid/cvx",
              "code": "166",
              "display": "Influenza, intradermal, quadrivalent, preservative free"
            },
            {
              "system": "http://hl7.org/fhir/sid/ndc",
              "code": "49281-0710-40",
              "display": "Influenza, intradermal, quadrivalent, preservative free"
            }
          ]
        },
        "patient": {
          "reference": "Patient/101304",
          "display": "Happy Kid"
        },
        "occurrenceDateTime": "2014-06-01T00:00:00-05:00",
        "primarySource": true,
        "manufacturer": {
          "display": "Immuno Inc."
        },
        "lotNumber": "NI",
        "performer": [
          {
            "actor": {
              "reference": "Practitioner/200017-Practitioner-10001"
            }
          }
        ]
      }
    },
    {
      "fullUrl": "Observation/200019-Result-10001",
      "resource": {
        "resourceType": "Observation",
        "id": "200019-Result-10001",
        "meta": {
          "versionId": "200019"
        },
        "identifier": [
          {
            "use": "official",
            "system": "urn:ietf:rfc:3986",
            "value": "urn:uuid:f038fcdc-13a1-4a82-999a-5281b0d14f28"
          }
        ],
        "status": "final",
        "category": [
          {
            "coding": [
              {
                "system": "http://terminology.hl7.org/CodeSystem/observation-category",
                "code": "laboratory",
                "display": "Laboratory"
              }
            ]
          }
        ],
        "code": {
          "coding": [
            {
              "system": "http://loinc.org",
              "code": "30313-1",
              "display": "HGB"
            }
          ],
          "text": "HGB"
        },
        "subject": {
          "reference": "Patient/101304",
          "display": "Happy Kid"
        },
        "effectiveDateTime": "2015-06-22",
        "issued": "2015-06-21T19:00:00-05:00",
        "valueQuantity": {
          "value": 10.2,
          "unit": "g/dL",
          "system": "http://unitsofmeasure.org"
        }
      }
    },
    {
      "fullUrl": "Observation/200019-Result-10002",
      "resource": {
        "resourceType": "Observation",
        "id": "200019-Result-10002",
        "meta": {
          "versionId": "200019"
        },
        "identifier": [
          {
            "use": "official",
            "system": "urn:ietf:rfc:3986",
            "value": "urn:uuid:08320d4d-783b-4b4b-8f30-4f138af6b27a"
          }
        ],
        "status": "final",
        "category": [
          {
            "coding": [
              {
                "system": "http://terminology.hl7.org/CodeSystem/observation-category",
                "code": "laboratory",
                "display": "Laboratory"
              }
            ]
          }
        ],
        "code": {
          "coding": [
            {
              "system": "http://loinc.org",
              "code": "33765-9",
              "display": "WBC"
            }
          ],
          "text": "WBC"
        },
        "subject": {
          "reference": "Patient/101304",
          "display": "Happy Kid"
        },
        "effectiveDateTime": "2015-06-22",
        "issued": "2015-06-21T19:00:00-05:00",
        "valueQuantity": {
          "value": 12.3,
          "unit": "10*3/uL",
          "system": "http://unitsofmeasure.org"
        }
      }
    },
    {
      "fullUrl": "Observation/200019-Result-10003",
      "resource": {
        "resourceType": "Observation",
        "id": "200019-Result-10003",
        "meta": {
          "versionId": "200019"
        },
        "identifier": [
          {
            "use": "official",
            "system": "urn:ietf:rfc:3986",
            "value": "urn:uuid:d29ce900-43ac-4190-b23c-6faaa5f867d0"
          }
        ],
        "status": "final",
        "category": [
          {
            "coding": [
              {
                "system": "http://terminology.hl7.org/CodeSystem/observation-category",
                "code": "laboratory",
                "display": "Laboratory"
              }
            ]
          }
        ],
        "code": {
          "coding": [
            {
              "system": "http://loinc.org",
              "code": "26515-7",
              "display": "PLT"
            }
          ],
          "text": "PLT"
        },
        "subject": {
          "reference": "Patient/101304",
          "display": "Happy Kid"
        },
        "effectiveDateTime": "2015-06-22",
        "issued": "2015-06-21T19:00:00-05:00",
        "valueQuantity": {
          "value": 123,
          "unit": "10*3/uL",
          "system": "http://unitsofmeasure.org"
        }
      }
    },
    {
      "fullUrl": "Observation/200019-Result-10004",
      "resource": {
        "resourceType": "Observation",
        "id": "200019-Result-10004",
        "meta": {
          "versionId": "200019"
        },
        "identifier": [
          {
            "use": "official",
            "system": "urn:ietf:rfc:3986",
            "value": "urn:uuid:5e25609f-e53b-4e66-9228-63f5c4796115"
          }
        ],
        "status": "final",
        "category": [
          {
            "coding": [
              {
                "system": "http://terminology.hl7.org/CodeSystem/observation-category",
                "code": "laboratory",
                "display": "Laboratory"
              }
            ]
          }
        ],
        "code": {
          "coding": [
            {
              "system": "http://loinc.org",
              "code": "50544-6",
              "display": "Everolimus BlEverolimus [Mass/volume] in Bloodood"
            }
          ],
          "text": "Everolimus [Mass/volume] in Blood"
        },
        "subject": {
          "reference": "Patient/101304",
          "display": "Happy Kid"
        },
        "effectiveDateTime": "2015-06-22",
        "issued": "2015-06-21T19:00:00-05:00",
        "valueQuantity": {
          "value": 10,
          "unit": "ng/mL",
          "system": "http://unitsofmeasure.org"
        },
        "interpretation": [
          {
            "coding": [
              {
                "system": "http://hl7.org/fhir/v2/0078",
                "code": "N",
                "display": "Normal"
              }
            ],
            "text": "Normal"
          }
        ],
        "referenceRange": [
          {
            "low": {
              "value": 2,
              "unit": "ng/mL",
              "system": "http://unitsofmeasure.org"
            },
            "high": {
              "value": 8,
              "unit": "ng/mL",
              "system": "http://unitsofmeasure.org"
            },
            "text": "2.0-8.0 ng/mL"
          }
        ]
      }
    },
    {
      "fullUrl": "Observation/200019-Result-10005",
      "resource": {
        "resourceType": "Observation",
        "id": "200019-Result-10005",
        "meta": {
          "versionId": "200019"
        },
        "identifier": [
          {
            "use": "official",
            "system": "urn:ietf:rfc:3986",
            "value": "urn:uuid:ccd9b68f-24b1-433b-900d-c2d63585fd72"
          }
        ],
        "status": "final",
        "category": [
          {
            "coding": [
              {
                "system": "http://terminology.hl7.org/CodeSystem/observation-category",
                "code": "laboratory",
                "display": "Laboratory"
              }
            ]
          }
        ],
        "code": {
          "coding": [
            {
              "system": "http://loinc.org",
              "code": "5778-6",
              "display": "Color of Urine"
            }
          ],
          "text": "Color of Urine"
        },
        "subject": {
          "reference": "Patient/101304",
          "display": "Happy Kid"
        },
        "effectiveDateTime": "2015-06-22",
        "issued": "2015-06-21T19:00:00-05:00",
        "valueString": "YELLOW",
        "interpretation": [
          {
            "coding": [
              {
                "system": "http://hl7.org/fhir/v2/0078",
                "code": "N",
                "display": "Normal"
              }
            ],
            "text": "Normal"
          }
        ],
        "referenceRange": [
          {
            "text": "YELLOW"
          }
        ]
      }
    }
  ]
}